Folder: Raw_data/04_XRD

File: Richard_sno_dropcast_XRD.xy
20.0049 3587.0
20.2117 3440.0
20.4185 3465.0
20.6253 3524.0
20.8321 3494.0
21.0389 3352.0
21.2457 3407.0
21.4525 3287.0
21.6593 3236.0
21.8661 3279.0
22.0729 3327.0
22.2797 3254.0
22.4865 3383.0
22.6933 3311.0
22.9002 3209.0
23.107 3177.0
23.3138 3166.0
23.5206 3096.0
23.7274 3020.0
23.9342 3106.0
24.141 2994.0
24.3478 2893.0
24.5546 2882.0
24.7614 2949.0
24.9682 3027.0
25.175 2986.0
25.3818 2992.0
25.5886 2974.0
25.7954 3152.0
26.0022 3184.0
26.209 3371.0
26.4158 3301.0
26.6226 3265.0
26.8294 3126.0
27.0362 2976.0
27.243 2907.0
27.4498 2812.0
27.6566 2670.0
27.8634 2727.0
28.0702 2612.0
28.277 2536.0
28.4838 2589.0
28.6906 2597.0
28.8974 2611.0
29.1042 2571.0
29.311 2774.0
29.5178 3723.0
29.7246 10638.0
29.9314 7872.0
30.1382 2912.0
30.345 2410.0
30.5518 2350.0
30.7586 2292.0
30.9654 2208.0
31.1722 2289.0
31.379 2232.0
31.5858 2169.0
31.7926 2180.0
31.9994 2159.0
32.2062 2232.0
32.413 2090.0
32.6198 2206.0
32.8266 2317.0
33.0334 2513.0
33.2402 6801.0
33.4471 2867.0
33.6539 2460.0
33.8607 2370.0
34.0675 2406.0
34.2743 2243.0
34.4811 2262.0
34.6879 2059.0
34.8947 1991.0
35.1015 1914.0
35.3083 1969.0
35.5151 1963.0
35.7219 1855.0
35.9287 1801.0
36.1355 1778.0
36.3423 1780.0
36.5491 1831.0
36.7559 1926.0
36.9627 2450.0
37.1695 2646.0
37.3763 1855.0
37.5831 1805.0
37.7899 1630.0
37.9967 1660.0
38.2035 1649.0
38.4103 1666.0
38.6171 1631.0
38.8239 1541.0
39.0307 1548.0
39.2375 1543.0
39.4443 1490.0
39.6511 1510.0
39.8579 1423.0
40.0647 1396.0
40.2715 1429.0
40.4783 1362.0
40.6851 1348.0
40.8919 1359.0
41.0987 1378.0
41.3055 1353.0
41.5123 1418.0
41.7191 1351.0
41.9259 1395.0
42.1327 1373.0
42.3395 1310.0
42.5463 1313.0
42.7531 1271.0
42.9599 1253.0
43.1667 1368.0
43.3735 1228.0
43.5803 1261.0
43.7871 1207.0
43.994 1282.0
44.2008 1274.0
44.4076 1271.0
44.6144 1223.0
44.8212 1229.0
45.028 1234.0
45.2348 1177.0
45.4416 1294.0
45.6484 1138.0
45.8552 1175.0
46.062 1242.0
46.2688 1175.0
46.4756 1194.0
46.6824 1153.0
46.8892 1212.0
47.096 1258.0
47.3028 1154.0
47.5096 1390.0
47.7164 2035.0
47.9232 1926.0
48.13 1357.0
48.3368 1274.0
48.5436 1248.0
48.7504 1194.0
48.9572 1195.0
49.164 1214.0
49.3708 1200.0
49.5776 1221.0
49.7844 1131.0
49.9912 1234.0
50.198 1383.0
50.4048 1714.0
50.6116 3246.0
50.8184 2795.0
51.0252 1592.0
51.232 1478.0
51.4388 1506.0
51.6456 1456.0
51.8524 1477.0
52.0592 1417.0
52.266 1338.0
52.4728 1381.0
52.6796 1320.0
52.8864 1264.0
53.0932 1224.0
53.3 1057.0
53.5068 1170.0
53.7136 1148.0
53.9204 1132.0
54.1272 1113.0
54.334 1136.0
54.5408 1133.0
54.7477 1071.0
54.9545 1075.0
55.1613 1018.0
55.3681 1037.0
55.5749 1053.0
55.7817 1018.0
55.9885 999.0
56.1953 992.0
56.4021 1048.0
56.6089 1021.0
56.8157 980.0
57.0225 1179.0
57.2293 1885.0
57.4361 2732.0
57.6429 1661.0
57.8497 1122.0
58.0565 1045.0
58.2633 978.0
58.4701 960.0
58.6769 932.0
58.8837 971.0
59.0905 973.0
59.2973 948.0
59.5041 929.0
59.7109 890.0
59.9177 946.0
60.1245 912.0
60.3313 931.0
60.5381 971.0
60.7449 966.0
60.9517 984.0
61.1585 1030.0
61.3653 1017.0
61.5721 1030.0
61.7789 1185.0
61.9857 1548.0
62.1925 1509.0
62.3993 1700.0
62.6061 1431.0
62.8129 1043.0
63.0197 952.0
63.2265 938.0
63.4333 876.0
63.6401 938.0
63.8469 960.0
64.0537 863.0
64.2605 863.0
64.4673 921.0
64.6741 872.0
64.8809 921.0
65.0877 977.0
65.2946 898.0
65.5014 891.0
65.7082 964.0
65.915 916.0
66.1218 888.0
66.3286 919.0
66.5354 841.0
66.7422 856.0
66.949 773.0
67.1558 827.0
67.3626 786.0
67.5694 797.0
67.7762 834.0
67.983 750.0
68.1898 722.0
68.3966 744.0
68.6034 724.0
68.8102 737.0
69.017 731.0
69.2238 732.0
69.4306 742.0
69.6374 699.0
69.8442 949.0
70.051 960.0
70.2578 728.0
70.4646 750.0
70.6714 751.0
70.8782 719.0
71.085 682.0
71.2918 706.0
71.4986 728.0
71.7054 641.0
71.9122 723.0
72.119 651.0
72.3258 637.0
72.5326 675.0
72.7394 664.0
72.9462 723.0
73.153 681.0
73.3598 711.0
73.5666 721.0
73.7734 623.0
73.9802 656.0
74.187 621.0
74.3938 680.0
74.6006 669.0
74.8074 611.0
75.0142 663.0
75.221 664.0
75.4278 639.0
75.6346 659.0
75.8415 626.0
76.0483 683.0
76.2551 609.0
76.4619 704.0
76.6687 609.0
76.8755 718.0
77.0823 682.0
77.2891 708.0
77.4959 727.0
77.7027 758.0
77.9095 869.0
78.1163 805.0
78.3231 763.0
78.5299 740.0
78.7367 710.0
78.9435 754.0
79.1503 746.0
79.3571 799.0
79.5639 792.0
79.7707 832.0
79.9775 701.0
79.9972 799.0